date,time,accel_X,accel_Y,accel_Z
8-16-2020,17:20:56,-7,-8,54
8-16-2020,17:20:56,-10,-11,55
8-16-2020,17:20:56,-11,-12,52
8-16-2020,17:20:56,-9,-10,56
8-16-2020,17:20:56,-10,-11,55
8-16-2020,17:20:56,-10,-11,53
8-16-2020,17:20:56,-10,-10,54
8-16-2020,17:20:56,-11,-11,55
8-16-2020,17:20:56,-10,-11,57
8-16-2020,17:20:56,-9,-10,55
8-16-2020,17:20:57,-10,-11,57
8-16-2020,17:20:57,-10,-11,54
8-16-2020,17:20:57,-10,-12,54
8-16-2020,17:20:57,-10,-11,55
8-16-2020,17:20:57,-7,-7,50
8-16-2020,17:20:57,0,-1,39
8-16-2020,17:20:57,0,0,38
8-16-2020,17:20:57,2,2,31
8-16-2020,17:20:57,2,1,24
8-16-2020,17:20:57,-2,-2,9
8-16-2020,17:20:58,-1,-2,11
8-16-2020,17:20:58,-3,-3,3
8-16-2020,17:20:58,0,0,-7
8-16-2020,17:20:58,-2,-2,-4
8-16-2020,17:20:58,-2,-3,-4
8-16-2020,17:20:58,-3,-4,-2
8-16-2020,17:20:58,-1,-1,-1
8-16-2020,17:20:58,1,0,-1
8-16-2020,17:20:58,-1,-2,-3
8-16-2020,17:20:58,-1,-1,-1
8-16-2020,17:20:59,-3,-3,-1
8-16-2020,17:20:59,-2,-2,-1
8-16-2020,17:20:59,-1,-2,-2
8-16-2020,17:20:59,-3,-3,-2
8-16-2020,17:20:59,-2,-3,-1
8-16-2020,17:20:59,-2,-3,-2
8-16-2020,17:20:59,-2,-3,-4
8-16-2020,17:20:59,0,-1,-1
8-16-2020,17:20:59,0,0,-1
8-16-2020,17:20:59,-2,-3,-1
8-16-2020,17:21:0,-1,-1,0
8-16-2020,17:21:0,-2,-2,-2
8-16-2020,17:21:0,-2,-3,-2
8-16-2020,17:21:0,-2,-2,-1
8-16-2020,17:21:0,-3,-3,-2
8-16-2020,17:21:0,-1,-2,-2
8-16-2020,17:21:0,-2,-3,-2
8-16-2020,17:21:0,-2,-2,-2
8-16-2020,17:21:0,-3,-3,-2
8-16-2020,17:21:0,-1,-1,-1
8-16-2020,17:21:1,0,-1,0
8-16-2020,17:21:1,-2,-2,-2
8-16-2020,17:21:1,-1,-1,0
8-16-2020,17:21:1,-2,-2,-1
8-16-2020,17:21:1,-1,-2,-1
8-16-2020,17:21:1,-2,-3,-2
8-16-2020,17:21:1,-1,-2,-1
8-16-2020,17:21:1,-2,-2,1
8-16-2020,17:21:1,3,3,8
8-16-2020,17:21:1,2,1,7
8-16-2020,17:21:2,2,1,8
8-16-2020,17:21:2,3,3,12
8-16-2020,17:21:2,4,3,12
8-16-2020,17:21:2,4,3,14
8-16-2020,17:21:2,3,3,15
8-16-2020,17:21:2,-2,-3,10
8-16-2020,17:21:2,6,5,20
8-16-2020,17:21:2,7,7,22
8-16-2020,17:21:2,9,8,23
8-16-2020,17:21:2,8,8,23
8-16-2020,17:21:3,9,8,23
8-16-2020,17:21:3,9,8,22
8-16-2020,17:21:3,7,7,21
8-16-2020,17:21:3,6,6,21
8-16-2020,17:21:3,5,4,22
8-16-2020,17:21:3,7,6,22
8-16-2020,17:21:3,10,9,23
8-16-2020,17:21:3,6,5,23
8-16-2020,17:21:3,4,4,23
8-16-2020,17:21:3,8,7,23
8-16-2020,17:21:4,6,5,24
8-16-2020,17:21:4,7,7,22
8-16-2020,17:21:4,8,7,25
8-16-2020,17:21:4,7,7,26
8-16-2020,17:21:4,7,6,22
8-16-2020,17:21:4,6,6,24
8-16-2020,17:21:4,6,6,24
8-16-2020,17:21:4,7,7,24
8-16-2020,17:21:4,5,4,21
8-16-2020,17:21:4,7,6,24
8-16-2020,17:21:5,7,7,24
8-16-2020,17:21:5,6,6,24
8-16-2020,17:21:5,5,4,21
8-16-2020,17:21:5,4,4,19
8-16-2020,17:21:5,5,5,21
8-16-2020,17:21:5,4,4,22
8-16-2020,17:21:5,3,3,25
8-16-2020,17:21:5,7,7,32
8-16-2020,17:21:5,8,7,36
8-16-2020,17:21:5,10,9,36
8-16-2020,17:21:6,11,10,42
8-16-2020,17:21:6,15,14,46
8-16-2020,17:21:6,10,9,51
8-16-2020,17:21:6,10,10,49
8-16-2020,17:21:6,15,14,48
8-16-2020,17:21:6,14,13,51
8-16-2020,17:21:6,12,12,49
8-16-2020,17:21:6,15,15,49
8-16-2020,17:21:6,17,17,54
8-16-2020,17:21:6,16,15,57
8-16-2020,17:21:7,15,15,54
8-16-2020,17:21:7,17,17,58
8-16-2020,17:21:7,18,17,58
8-16-2020,17:21:7,16,16,58
8-16-2020,17:21:7,16,16,62
8-16-2020,17:21:7,20,20,70
8-16-2020,17:21:7,16,15,68
8-16-2020,17:21:7,20,19,72
8-16-2020,17:21:7,8,8,74
8-16-2020,17:21:7,22,21,74
8-16-2020,17:21:8,21,20,79
8-16-2020,17:21:8,23,22,80
8-16-2020,17:21:8,17,16,82
8-16-2020,17:21:8,18,17,85
8-16-2020,17:21:8,22,21,88
8-16-2020,17:21:8,19,18,87
8-16-2020,17:21:8,20,19,92
8-16-2020,17:21:8,13,12,83
8-16-2020,17:21:8,20,19,92
8-16-2020,17:21:8,23,22,95
8-16-2020,17:21:9,20,19,92
8-16-2020,17:21:9,21,21,95
8-16-2020,17:21:9,20,20,95
8-16-2020,17:21:9,17,17,91
8-16-2020,17:21:9,15,14,96
8-16-2020,17:21:9,16,16,93
8-16-2020,17:21:9,15,14,93
8-16-2020,17:21:9,18,17,97
8-16-2020,17:21:9,17,17,96
8-16-2020,17:21:9,14,13,96
8-16-2020,17:21:10,13,12,95
8-16-2020,17:21:10,15,15,96
8-16-2020,17:21:10,14,13,98
8-16-2020,17:21:10,13,12,98
8-16-2020,17:21:10,14,13,97
8-16-2020,17:21:10,14,14,94
8-16-2020,17:21:10,13,13,100
8-16-2020,17:21:10,17,17,102
8-16-2020,17:21:10,14,13,104
8-16-2020,17:21:10,14,13,102
8-16-2020,17:21:11,13,12,100
8-16-2020,17:21:11,13,12,101
8-16-2020,17:21:11,11,10,100
8-16-2020,17:21:11,11,10,105
8-16-2020,17:21:11,10,10,108
8-16-2020,17:21:11,9,8,107
8-16-2020,17:21:11,8,7,106
8-16-2020,17:21:11,8,7,108
8-16-2020,17:21:11,7,7,112
8-16-2020,17:21:11,7,6,114
8-16-2020,17:21:12,8,7,117
8-16-2020,17:21:12,6,5,110
8-16-2020,17:21:12,13,12,119
8-16-2020,17:21:12,12,11,115
8-16-2020,17:21:12,5,4,112
8-16-2020,17:21:12,7,7,112
8-16-2020,17:21:12,8,7,120
8-16-2020,17:21:12,8,8,115
8-16-2020,17:21:12,6,6,115
8-16-2020,17:21:12,8,8,115
8-16-2020,17:21:13,6,5,115
8-16-2020,17:21:13,7,6,116
8-16-2020,17:21:13,8,8,115
8-16-2020,17:21:13,9,8,116
8-16-2020,17:21:13,6,5,120
8-16-2020,17:21:13,4,4,118
8-16-2020,17:21:13,6,5,120
8-16-2020,17:21:14,6,5,124
8-16-2020,17:21:14,6,5,124
8-16-2020,17:21:14,3,2,128
8-16-2020,17:21:14,3,2,128
8-16-2020,17:21:14,2,1,129
8-16-2020,17:21:14,1,0,133
8-16-2020,17:21:14,4,3,131
8-16-2020,17:21:14,1,0,135
8-16-2020,17:21:15,5,4,135
8-16-2020,17:21:15,1,0,136
8-16-2020,17:21:15,-2,-3,136
8-16-2020,17:21:15,-1,-2,139
8-16-2020,17:21:15,-1,-1,140
8-16-2020,17:21:15,1,1,137
8-16-2020,17:21:15,-1,-2,138
8-16-2020,17:21:16,-3,-4,141
8-16-2020,17:21:16,-4,-5,146
8-16-2020,17:21:16,-3,-4,142
8-16-2020,17:21:16,-3,-4,143
8-16-2020,17:21:16,-3,-3,144
8-16-2020,17:21:16,-4,-4,146
8-16-2020,17:21:16,-2,-3,142
8-16-2020,17:21:16,-7,-7,146
8-16-2020,17:21:17,-9,-10,142
8-16-2020,17:21:17,-1,-2,161
8-16-2020,17:21:17,0,-1,162
8-16-2020,17:21:17,-9,-9,155
8-16-2020,17:21:17,-16,-17,153
8-16-2020,17:21:17,-20,-21,156
8-16-2020,17:21:17,-19,-20,163
8-16-2020,17:21:17,-15,-15,163
8-16-2020,17:21:17,-14,-14,167
8-16-2020,17:21:17,-3,-3,165
8-16-2020,17:21:17,6,5,131
8-16-2020,17:21:17,11,10,133
8-16-2020,17:21:17,8,7,119
8-16-2020,17:21:17,10,9,115
8-16-2020,17:21:17,12,11,92
8-16-2020,17:21:17,14,13,91
8-16-2020,17:21:17,13,12,89
8-16-2020,17:21:17,13,12,79
8-16-2020,17:21:17,17,16,77
8-16-2020,17:21:18,19,18,72
8-16-2020,17:21:18,19,18,69
8-16-2020,17:21:18,18,17,60
8-16-2020,17:21:18,19,19,57
8-16-2020,17:21:18,16,16,45
8-16-2020,17:21:18,12,12,33
8-16-2020,17:21:18,19,18,42
8-16-2020,17:21:18,14,14,32
8-16-2020,17:21:18,14,13,26
8-16-2020,17:21:18,15,14,31
8-16-2020,17:21:18,16,16,26
8-16-2020,17:21:19,15,14,21
8-16-2020,17:21:19,10,10,13
8-16-2020,17:21:19,14,14,10
8-16-2020,17:21:19,23,22,13
8-16-2020,17:21:19,7,6,1
8-16-2020,17:21:19,5,4,-6
8-16-2020,17:21:19,2,2,-4
8-16-2020,17:21:19,-1,-1,-7
8-16-2020,17:21:19,-9,-10,-12
8-16-2020,17:21:19,-4,-4,-12
8-16-2020,17:21:20,0,0,-13
8-16-2020,17:21:20,1,1,-10
8-16-2020,17:21:20,-2,-3,-11
8-16-2020,17:21:20,-6,-7,-12
8-16-2020,17:21:20,-5,-6,-13
8-16-2020,17:21:20,-7,-8,-16
8-16-2020,17:21:20,-10,-10,-19
8-16-2020,17:21:20,-12,-12,-19
8-16-2020,17:21:20,-11,-12,-20
8-16-2020,17:21:20,-13,-14,-17
8-16-2020,17:21:21,-13,-13,-18
8-16-2020,17:21:21,-12,-13,-20
8-16-2020,17:21:21,-12,-13,-18
8-16-2020,17:21:21,-13,-14,-21
8-16-2020,17:21:21,-14,-14,-19
8-16-2020,17:21:21,-13,-14,-21
8-16-2020,17:21:21,-13,-13,-20
8-16-2020,17:21:21,-14,-14,-19
8-16-2020,17:21:21,-13,-14,-19
8-16-2020,17:21:21,-13,-14,-18
8-16-2020,17:21:22,-13,-14,-19
8-16-2020,17:21:22,-12,-13,-19
8-16-2020,17:21:22,-14,-14,-19
8-16-2020,17:21:22,-13,-14,-19
8-16-2020,17:21:22,-15,-15,-20
8-16-2020,17:21:22,-14,-14,-21
8-16-2020,17:21:22,-16,-17,-21
8-16-2020,17:21:22,-17,-17,-21
8-16-2020,17:21:22,-17,-17,-22
8-16-2020,17:21:22,-19,-20,-22
8-16-2020,17:21:23,-20,-20,-25
8-16-2020,17:21:23,-23,-23,-23
8-16-2020,17:21:23,-23,-24,-23
8-16-2020,17:21:23,-24,-25,-18
8-16-2020,17:21:23,-26,-26,-19
8-16-2020,17:21:23,-26,-27,-20
8-16-2020,17:21:23,-27,-27,-21
8-16-2020,17:21:23,-27,-28,-18
8-16-2020,17:21:23,-28,-29,-16
8-16-2020,17:21:23,-33,-33,-21
8-16-2020,17:21:24,-28,-29,-11
8-16-2020,17:21:24,-31,-31,-12
8-16-2020,17:21:24,-30,-31,-10
8-16-2020,17:21:24,-31,-32,-8
8-16-2020,17:21:24,-33,-34,-6
8-16-2020,17:21:24,-34,-35,-6
8-16-2020,17:21:24,-35,-36,-4
8-16-2020,17:21:24,-37,-37,-4
8-16-2020,17:21:24,-37,-38,-1
8-16-2020,17:21:24,-39,-40,0
8-16-2020,17:21:25,-40,-41,-1
8-16-2020,17:21:25,-40,-42,2
8-16-2020,17:21:25,-42,-43,4
8-16-2020,17:21:25,-45,-46,7
8-16-2020,17:21:25,-47,-47,6
8-16-2020,17:21:25,-46,-48,8
8-16-2020,17:21:25,-50,-51,10
8-16-2020,17:21:25,-50,-51,11
8-16-2020,17:21:25,-51,-52,11
8-16-2020,17:21:25,-50,-51,15
8-16-2020,17:21:26,-55,-56,13
8-16-2020,17:21:26,-55,-56,15
8-16-2020,17:21:26,-57,-58,17
8-16-2020,17:21:26,-59,-60,18
8-16-2020,17:21:26,-60,-61,19
8-16-2020,17:21:26,-61,-62,19
8-16-2020,17:21:26,-62,-63,21
8-16-2020,17:21:26,-62,-63,22
8-16-2020,17:21:26,-63,-64,22
8-16-2020,17:21:26,-64,-65,23
8-16-2020,17:21:27,-66,-67,24
8-16-2020,17:21:27,-66,-67,24
8-16-2020,17:21:27,-66,-67,25
8-16-2020,17:21:27,-67,-68,25
8-16-2020,17:21:27,-70,-71,28
8-16-2020,17:21:27,-70,-71,27
8-16-2020,17:21:27,-71,-72,28
8-16-2020,17:21:27,-72,-73,29
8-16-2020,17:21:27,-72,-73,31
8-16-2020,17:21:27,-74,-75,31
8-16-2020,17:21:28,-76,-77,33
8-16-2020,17:21:28,-75,-76,35
8-16-2020,17:21:28,-77,-78,37
8-16-2020,17:21:28,-78,-79,40
8-16-2020,17:21:28,-79,-80,41
8-16-2020,17:21:28,-80,-81,43
8-16-2020,17:21:28,-80,-81,44
8-16-2020,17:21:28,-82,-83,44
8-16-2020,17:21:28,-83,-84,47
8-16-2020,17:21:28,-82,-83,48
8-16-2020,17:21:29,-82,-83,49
8-16-2020,17:21:29,-84,-85,49
8-16-2020,17:21:29,-84,-85,51
8-16-2020,17:21:29,-84,-84,50
8-16-2020,17:21:29,-84,-85,50
8-16-2020,17:21:29,-82,-83,49
8-16-2020,17:21:29,-82,-83,48
8-16-2020,17:21:29,-81,-82,46
8-16-2020,17:21:29,-79,-80,46
8-16-2020,17:21:29,-78,-78,39
8-16-2020,17:21:30,-77,-79,35
8-16-2020,17:21:30,-73,-74,34
8-16-2020,17:21:30,-71,-72,30
8-16-2020,17:21:30,-68,-68,25
8-16-2020,17:21:30,-65,-66,23
8-16-2020,17:21:30,-63,-64,19
8-16-2020,17:21:30,-61,-62,15
8-16-2020,17:21:30,-57,-58,13
8-16-2020,17:21:30,-54,-55,10
8-16-2020,17:21:30,-53,-54,8
8-16-2020,17:21:31,-51,-52,5
8-16-2020,17:21:31,-49,-50,3
8-16-2020,17:21:31,-46,-47,2
8-16-2020,17:21:31,-43,-44,0
8-16-2020,17:21:31,-41,-42,-3
8-16-2020,17:21:31,-40,-41,-3
8-16-2020,17:21:31,-37,-38,-5
8-16-2020,17:21:31,-36,-37,-9
8-16-2020,17:21:31,-35,-36,-9
8-16-2020,17:21:31,-34,-35,-8
8-16-2020,17:21:32,-32,-33,-7
8-16-2020,17:21:32,-32,-33,-7
8-16-2020,17:21:32,-29,-29,-10
8-16-2020,17:21:32,-23,-23,-13
8-16-2020,17:21:32,-23,-24,-9
8-16-2020,17:21:32,-23,-24,-13
8-16-2020,17:21:32,-12,-13,-4
8-16-2020,17:21:32,-12,-12,-10
8-16-2020,17:21:32,-11,-12,-11
8-16-2020,17:21:32,-10,-10,-18
8-16-2020,17:21:33,-10,-11,-18
8-16-2020,17:21:33,-13,-14,-15
8-16-2020,17:21:33,-7,-8,-12
8-16-2020,17:21:33,2,1,-4
8-16-2020,17:21:33,-2,-2,-24
8-16-2020,17:21:33,-7,-7,-21
8-16-2020,17:21:33,-15,-16,-14
8-16-2020,17:21:33,-16,-17,-9
8-16-2020,17:21:33,-11,-11,-1
8-16-2020,17:21:33,-9,-10,-4
8-16-2020,17:21:34,-10,-11,-8
8-16-2020,17:21:34,-13,-14,-10
8-16-2020,17:21:34,-16,-17,-10
8-16-2020,17:21:34,-13,-13,-18
8-16-2020,17:21:34,-15,-16,-16
8-16-2020,17:21:34,-16,-16,-14
8-16-2020,17:21:34,-9,-9,-1
8-16-2020,17:21:34,-9,-9,-8
8-16-2020,17:21:34,-10,-10,-13
8-16-2020,17:21:34,-9,-10,-12
8-16-2020,17:21:35,-11,-11,-13
8-16-2020,17:21:35,-13,-14,-15
8-16-2020,17:21:35,-13,-13,-15
8-16-2020,17:21:35,-14,-14,-14
8-16-2020,17:21:35,-12,-12,-10
8-16-2020,17:21:35,-13,-14,-13
8-16-2020,17:21:35,-13,-13,-15
8-16-2020,17:21:35,-13,-13,-15
8-16-2020,17:21:35,-12,-13,-12
8-16-2020,17:21:35,-14,-14,-13
8-16-2020,17:21:36,-14,-14,-11
8-16-2020,17:21:36,-13,-14,-11
8-16-2020,17:21:36,-11,-11,-13
8-16-2020,17:21:36,-11,-12,-14
8-16-2020,17:21:36,-12,-12,-11
8-16-2020,17:21:36,-11,-12,-14
8-16-2020,17:21:36,-13,-13,-16
8-16-2020,17:21:36,-13,-13,-16
8-16-2020,17:21:36,-13,-13,-10
8-16-2020,17:21:36,-14,-14,-9
8-16-2020,17:21:37,-13,-14,-12
8-16-2020,17:21:37,-11,-11,-14
8-16-2020,17:21:37,-11,-12,-13
8-16-2020,17:21:37,-12,-12,-12
8-16-2020,17:21:37,-12,-13,-10
8-16-2020,17:21:37,-12,-13,-12
